Folder: GSE_Shell

Note: fit2d_shell_setup_000.txt
fit2d executable location      ; E:\Dropbox\software\fit2d_shell\GSE_shell\fit2d.exe
jspds card libtary location    ; E:\Dropbox\software\fit2d_shell\GSE_shell\jcpds\
calibrate script location      ; E:\Dropbox\software\fit2d_shell\GSE_shell\open_with_cal.mac
open with cal script location  ; E:\Dropbox\software\fit2d_shell\GSE_shell\calibrate.mac
mask script location           ; E:\Dropbox\software\fit2d_shell\GSE_shell\mask.mac
exmask script location         ; E:\Dropbox\software\fit2d_shell\GSE_shell\existing_mask.mac
cake   script location         ; E:\Dropbox\software\fit2d_shell\GSE_shell\cake.mac
data directory                 ; E:\Dropbox\software\HIGP\
destination directory          ; E:\Dropbox\APS_Data\16IDB_2013-3\Yi_Hu\cal\
default wavelength             ;    1.79026

Note: fit2d_shell_setup_001.txt
fit2d executable location      ; P:\dac_user\sfw\GSE_shell\fit2d.exe
jspds card libtary location    ; T:\dac_user\jcpds\
calibrate script location      ; P:\dac_user\sfw\GSE_shell\open_with_cal.mac
open with cal script location  ; P:\dac_user\sfw\GSE_shell\calibrate.mac
mask script location           ; P:\dac_user\sfw\GSE_shell\mask.mac
exmask script location         ; P:\dac_user\sfw\GSE_shell\existing_mask.mac
cake   script location         ; P:\dac_user\sfw\GSE_shell\cake.mac
data directory                 ; T:\dac_user\2010\IDD_2010-2\Murli\
destination directory          ; T:\dac_user\2011\IDD_2011-1\Fischer\
default wavelength             ;    0.33440

Note: users.txt
Administrator 
Przemek 
Vitali 
Innokenty
Anastasia

File: LaB6_P1_C1_D1w_001.chi
E:\Dropbox\software\HIGP\LaB6_P1_C1_D1w_001.tif: 2-theta Scan
2-Theta Angle (Degrees)

       2189
 0.119228  114.798
 0.246405  96.0503
 0.373581  102.687
 0.500758  105.727
 0.627935  105.753
 0.755112  95.9704
 0.882288  90.7556
 1.00946  93.6526
 1.13664  90.4054
 1.26382  96.993
 1.39099  96.4505
 1.51817  93.2083
 1.64535  93.2379
 1.77252  92.7622
 1.8997  124.86
 2.02688  107.503
 2.15405  102.736
 2.28123  96.4697
 2.40841  100.295
 2.53558  112.648
 2.66276  108.685
 2.78994  106.893
 2.91711  102.576
 3.04429  108.159
 3.17147  120.554
 3.29865  100.244
 3.42582  111.299
 3.553  102.209
 3.68018  98.9138
 3.80735  100.632
 3.93453  100.465
 4.06171  101.002
 4.18888  99.3111
 4.31606  99.6978
 4.44323  100.516
 4.57041  100.082
 4.69759  101.367
 4.82477  133.082
 4.95194  102.078
 5.07912  99.5359
 5.20629  99.5875
 5.33347  99.7068
 5.46065  112.992
 5.58783  92.063
 5.715  92.0509
 5.84218  91.4288
 5.96936  91.5815
 6.09653  87.5637
 6.22371  90.7019
 6.35089  93.5871
 6.47806  86.4691
 6.60524  84.067
 6.73242  87.8922
 6.85959  85.213
 6.98677  84.3566
 7.11395  93.9458
 7.24112  88.8698
 7.3683  87.0726
 7.49548  87.8231
 7.62265  86.5284
 7.74983  84.6329
 7.87701  93.7726
 8.00418  94.8208
 8.13136  92.4865
 8.25854  87.6542
 8.38571  95.5582
 8.51289  94.4955
 8.64007  88.8128
 8.76724  89.5399
 8.89442  99.5934
 9.02159  87.3089
 9.14877  100.879
 9.27595  99.8727
 9.40313  103.866
 9.5303  106.025
 9.65748  114.265
 9.78466  115.367
 9.91183  140.171
 10.039  127.669
 10.1662  130.864
 10.2934  133.209
 10.4205  144.66
 10.5477  141.88
 10.6749  147.157
 10.8021  144.324
 10.9292  152.286
 11.0564  153.91
 11.1836  166.985
 11.3108  168.017
 11.438  169.501
 11.5651  177.887
 11.6923  186.125
 11.8195  186.129
 11.9467  182.545
 12.0738  182.736
 12.201  186.136
 12.3282  176.674
 12.4554  181.804
 12.5825  178.106
 12.7097  173.518
 12.8369  174.324
 12.9641  171.375
 13.0912  172.869
 13.2184  169.515
 13.3456  161.717
 13.4728  175.111
 13.6  169.189
 13.7271  169.365
 13.8543  167.325
 13.9815  178.196
 14.1087  168.169
 14.2358  171.902
 14.363  172.202
 14.4902  195.263
 14.6174  189.296
 14.7445  190.933
 14.8717  204.141
 14.9989  191.941
 15.1261  185.919
 15.2533  193.137
 15.3804  195.459
 15.5076  179.632
 15.6348  183.477
 15.762  178.709
 15.8891  181.47
 16.0163  171.341
 16.1435  178.498
 16.2707  209.38
 16.3978  173.665
 16.525  219.63
 16.6522  184.105
 16.7794  167.099
 16.9065  164.449
 17.0337  167.49
 17.1609  161.034
 17.2881  154.966
 17.4153  159.328
 17.5424  167.691
 17.6696  168.207
 17.7968  182.982
 17.924  167.707
 18.0511  169.469
 18.1783  157.264
 18.3055  148.904
 18.4327  150.186
 18.5598  144.741
 18.687  144.884
 18.8142  141.28
 18.9414  142.841
 19.0686  166.11
 19.1957  140.431
 19.3229  137.572
 19.4501  134.134
 19.5773  140.512
 19.7044  136.006
 19.8316  134.254
 19.9588  141.879
 20.086  133.723
 20.2131  131.91
 20.3403  126.438
 20.4675  128.68
 20.5947  131.506
 20.7218  144.472
 20.849  140.943
 20.9762  121.986
 21.1034  115.924
 21.2306  118.141
 21.3577  120.362
 21.4849  134.241
 21.6121  113.368
 21.7393  134.523
 21.8664  108.036
 21.9936  108.873
 22.1208  107.168
 22.248  106.721
 22.3751  107.425
 22.5023  110.53
 22.6295  113.333
 22.7567  126.581
 22.8839  104.934
 23.011  125.014
 23.1382  114.322
 23.2654  113.204
 23.3926  97.6466
 23.5197  99.2636
 23.6469  100.849
 23.7741  100.9
 23.9013  91.8147
 24.0284  91.3601
 24.1556  96.006
 24.2828  98.2086
 24.41  87.3616
 24.5371  85.0088
 24.6643  83.8226
 24.7915  83.2107
 24.9187  80.3683
 25.0459  83.5908
 25.173  82.9237
 25.3002  78.7278
 25.4274  78.8812
 25.5546  79.5579
 25.6817  82.8352
 25.8089  70.7168
 25.9361  69.3376
 26.0633  68.8074
 26.1904  73.5971
 26.3176  87.8964
 26.4448  95.5051
 26.572  100.069
 26.6992  106.884
 26.8263  114.384
 26.9535  129.563
 27.0807  121.595
 27.2079  128.111
 27.335  141.097
 27.4622  132.717
 27.5894  127.109
 27.7166  128.519
 27.8437  121.504
 27.9709  124.919
 28.0981  127.754
 28.2253  119.039
 28.3524  126.409
 28.4796  109.101
 28.6068  100.097
 28.734  90.6009
 28.8612  77.2015
 28.9883  63.9897
 29.1155  47.2479
 29.2427  14.281
 29.3699  0.0000000E+00
 29.497  0.0000000E+00
 29.6242  0.0000000E+00
 29.7514  0.0000000E+00
 29.8786  0.0000000E+00
 30.0057  0.0000000E+00
 30.1329  0.0000000E+00
 30.2601  0.0000000E+00
 30.3873  0.0000000E+00
 30.5145  0.0000000E+00
 30.6416  0.0000000E+00
 30.7688  0.0000000E+00
 30.896  0.0000000E+00
 31.0232  0.0000000E+00
 31.1503  0.0000000E+00
 31.2775  0.0000000E+00
 31.4047  0.0000000E+00
 31.5319  0.0000000E+00
 31.659  0.0000000E+00
 31.7862  0.0000000E+00
 31.9134  0.0000000E+00
 32.0406  0.0000000E+00
 32.1678  0.0000000E+00
 32.2949  0.0000000E+00
 32.4221  0.0000000E+00
 32.5493  0.0000000E+00
 32.6765  0.0000000E+00
 32.8036  0.0000000E+00
 32.9308  0.0000000E+00
 33.058  0.0000000E+00
 33.1852  0.0000000E+00
 33.3123  0.0000000E+00
 33.4395  0.0000000E+00
 33.5667  0.0000000E+00
 33.6939  0.0000000E+00
 33.821  0.0000000E+00
 33.9482  0.0000000E+00
 34.0754  0.0000000E+00
 34.2026  0.0000000E+00
 34.3298  0.0000000E+00
 34.4569  0.0000000E+00
 34.5841  0.0000000E+00
 34.7113  0.0000000E+00
 34.7908  0.0000000E+00